Folder: remote-sensing-homework/hw1/usgs_splib07/ASCIIdata_splib07b_cvASD/all_material

Note: hw1/usgs_splib07/ASCIIdata_splib07b_cvASD/all_material/s07_ASD_1-2-3-Trimethylbenzene_85K_ASDHRb_AREF.txt
s07_ASD Record=16754: 1-2-3-Trimethylbenzene 85K   ASDHRb AREF
-1.2300000e+034
 7.0097655e-001
 7.0126420e-001
 6.9676191e-001
 6.9226015e-001
 6.9109023e-001
 6.9290924e-001
 6.9168741e-001
 6.8790686e-001
 6.8613839e-001
 6.8910414e-001
 6.8988061e-001
 6.8989849e-001
 6.8946368e-001
 6.8968135e-001
 6.9358259e-001
 6.9666320e-001
 6.9757229e-001
 6.9928414e-001
 7.0138901e-001
 7.0439881e-001
 7.0769691e-001
 7.0909351e-001
 7.0898628e-001
 7.0898795e-001
 7.1071297e-001
 7.1293181e-001
 7.1374989e-001
 7.1419632e-001
 7.1665221e-001
 7.1899468e-001
 7.2109711e-001
 7.2337890e-001
 7.2648960e-001
 7.2940665e-001
 7.3309439e-001
 7.3754609e-001
 7.4064147e-001
 7.4333352e-001
 7.4652487e-001
 7.5051123e-001
 7.5379902e-001
 7.5665241e-001
 7.5970989e-001
 7.6323050e-001
 7.6561624e-001
 7.6838392e-001
 7.7166706e-001
 7.7367198e-001
 7.7608550e-001
 7.7877229e-001
 7.8156322e-001
 7.8468901e-001
 7.8695959e-001
 7.8894395e-001
 7.9176801e-001
 7.9442167e-001
 7.9666656e-001
 7.9860759e-001
 8.0069405e-001
 8.0280769e-001
 8.0505824e-001
 8.0751967e-001
 8.1014240e-001
 8.1276107e-001
 8.1525922e-001
 8.1775713e-001
 8.2066154e-001
 8.2349753e-001
 8.2609999e-001
 8.2881236e-001
 8.3206660e-001
 8.3510858e-001
 8.3771867e-001
 8.4066224e-001
 8.4334421e-001
 8.4619057e-001
 8.4934193e-001
 8.5173672e-001
 8.5416389e-001
 8.5677058e-001
 8.5919213e-001
 8.6139184e-001
 8.6357111e-001
 8.6581898e-001
 8.6799443e-001
 8.7020236e-001
 8.7222350e-001
 8.7407494e-001
 8.7631100e-001
 8.7836492e-001
 8.8016957e-001
 8.8208205e-001
 8.8423896e-001
 8.8622117e-001
 8.8797909e-001
 8.9007860e-001
 8.9231223e-001
 8.9437056e-001
 8.9616168e-001
 8.9822859e-001
 9.0024942e-001
 9.0218258e-001
 9.0417445e-001
 9.0620112e-001
 9.0813851e-001
 9.0993756e-001
 9.1176277e-001
 9.1378295e-001
 9.1580975e-001
 9.1766012e-001
 9.1955161e-001
 9.2144889e-001
 9.2331094e-001
 9.2511308e-001
 9.2696512e-001
 9.2886376e-001
 9.3075061e-001
 9.3252665e-001
 9.3419284e-001
 9.3586022e-001
 9.3763560e-001
 9.3941563e-001
 9.4112033e-001
 9.4271493e-001
 9.4426423e-001
 9.4590771e-001
 9.4755411e-001
 9.4906574e-001
 9.5039171e-001
 9.5168799e-001
 9.5301837e-001
 9.5432281e-001
 9.5543814e-001
 9.5656377e-001
 9.5772290e-001
 9.5880246e-001
 9.5994443e-001
 9.6097201e-001
 9.6179950e-001
 9.6263313e-001
 9.6359277e-001
 9.6457195e-001
 9.6538776e-001
 9.6616280e-001
 9.6697158e-001
 9.6781749e-001
 9.6858197e-001
 9.6920568e-001
 9.6981233e-001
 9.7049266e-001
 9.7113961e-001
 9.7176498e-001
 9.7237611e-001
 9.7295213e-001
 9.7341353e-001
 9.7382724e-001
 9.7424412e-001
 9.7464269e-001
 9.7499448e-001
 9.7538519e-001
 9.7582608e-001
 9.7610068e-001
 9.7634214e-001
 9.7664928e-001
 9.7702712e-001
 9.7730446e-001
 9.7752732e-001
 9.7774625e-001
 9.7796059e-001
 9.7818679e-001
 9.7840708e-001
 9.7860247e-001
 9.7879165e-001
 9.7895241e-001
 9.7905767e-001
 9.7912169e-001
 9.7928452e-001
 9.7951609e-001
 9.7965270e-001
 9.7953743e-001
 9.7958022e-001
 9.7976893e-001
 9.798751

Note: hw1/usgs_splib07/ASCIIdata_splib07b_cvASD/all_material/s07_ASD_1-2-3-Trimethylbenzene_85K_NIC4bb_RREF.txt
s07_ASD Record=16760: 1-2-3-Trimethylbenzene 85K   NIC4bb RREF
-1.2300000e+034
-1.2300000e+034
-1.2300000e+034
-1.2300000e+034
-1.2300000e+034
-1.2300000e+034
-1.2300000e+034
-1.2300000e+034
-1.2300000e+034
-1.2300000e+034
-1.2300000e+034
-1.2300000e+034
-1.2300000e+034
-1.2300000e+034
-1.2300000e+034
-1.2300000e+034
-1.2300000e+034
-1.2300000e+034
-1.2300000e+034
-1.2300000e+034
-1.2300000e+034
-1.2300000e+034
-1.2300000e+034
-1.2300000e+034
-1.2300000e+034
-1.2300000e+034
-1.2300000e+034
-1.2300000e+034
-1.2300000e+034
-1.2300000e+034
-1.2300000e+034
-1.2300000e+034
-1.2300000e+034
-1.2300000e+034
-1.2300000e+034
-1.2300000e+034
-1.2300000e+034
-1.2300000e+034
-1.2300000e+034
-1.2300000e+034
-1.2300000e+034
-1.2300000e+034
-1.2300000e+034
-1.2300000e+034
-1.2300000e+034
-1.2300000e+034
-1.2300000e+034
-1.2300000e+034
-1.2300000e+034
-1.2300000e+034
-1.2300000e+034
-1.2300000e+034
-1.2300000e+034
-1.2300000e+034
-1.2300000e+034
-1.2300000e+034
-1.2300000e+034
-1.2300000e+034
-1.2300000e+034
-1.2300000e+034
-1.2300000e+034
-1.2300000e+034
-1.2300000e+034
-1.2300000e+034
-1.2300000e+034
-1.2300000e+034
-1.2300000e+034
-1.2300000e+034
-1.2300000e+034
-1.2300000e+034
-1.2300000e+034
-1.2300000e+034
-1.2300000e+034
-1.2300000e+034
-1.2300000e+034
-1.2300000e+034
-1.2300000e+034
-1.2300000e+034
-1.2300000e+034
-1.2300000e+034
-1.2300000e+034
-1.2300000e+034
-1.2300000e+034
-1.2300000e+034
-1.2300000e+034
-1.2300000e+034
-1.2300000e+034
-1.2300000e+034
-1.2300000e+034
-1.2300000e+034
-1.2300000e+034
-1.2300000e+034
-1.2300000e+034
-1.2300000e+034
-1.2300000e+034
-1.2300000e+034
-1.2300000e+034
-1.2300000e+034
-1.2300000e+034
-1.2300000e+034
-1.2300000e+034
-1.2300000e+034
-1.2300000e+034
-1.2300000e+034
-1.2300000e+034
-1.2300000e+034
-1.2300000e+034
-1.2300000e+034
-1.2300000e+034
-1.2300000e+034
-1.2300000e+034
-1.2300000e+034
-1.2300000e+034
-1.2300000e+034
-1.2300000e+034
-1.2300000e+034
-1.2300000e+034
-1.2300000e+034
-1.2300000e+034
-1.2300000e+034
-1.2300000e+034
-1.2300000e+034
-1.2300000e+034
-1.2300000e+034
-1.2300000e+034
-1.2300000e+034
-1.2300000e+034
-1.2300000e+034
-1.2300000e+034
-1.2300000e+034
-1.2300000e+034
-1.2300000e+034
-1.2300000e+034
-1.2300000e+034
-1.2300000e+034
-1.2300000e+034
-1.2300000e+034
-1.2300000e+034
-1.2300000e+034
-1.2300000e+034
-1.2300000e+034
-1.2300000e+034
-1.2300000e+034
-1.2300000e+034
-1.2300000e+034
-1.2300000e+034
-1.2300000e+034
-1.2300000e+034
-1.2300000e+034
-1.2300000e+034
-1.2300000e+034
-1.2300000e+034
-1.2300000e+034
-1.2300000e+034
-1.2300000e+034
-1.2300000e+034
-1.2300000e+034
-1.2300000e+034
-1.2300000e+034
-1.2300000e+034
-1.2300000e+034
-1.2300000e+034
-1.2300000e+034
-1.2300000e+034
-1.2300000e+034
-1.2300000e+034
-1.2300000e+034
-1.2300000e+034
-1.2300000e+034
-1.2300000e+034
-1.2300000e+034
-1.2300000e+034
-1.2300000e+034
-1.2300000e+034
-1.2300000e+034
-1.2300000e+034
-1.2300000e+034
-1.2300000e+034
-1.2300000e+034
-1.2300000e+034
-1.2300000e+034
-1.2300000e+034
-1.2300000e+034
-1.230000

File: s07_ASD_Chalcedony_CU91-6A_XRD_NIC4aa_RREF.txt
s07_ASD Record=2526: Chalcedony CU91-6A XRD       NIC4aa RREF
-1.23e+34
-1.23e+34
-1.23e+34
-1.23e+34
-1.23e+34
-1.23e+34
-1.23e+34
-1.23e+34
-1.23e+34
-1.23e+34
-1.23e+34
-1.23e+34
-1.23e+34
-1.23e+34
-1.23e+34
-1.23e+34
-1.23e+34
-1.23e+34
-1.23e+34
-1.23e+34
-1.23e+34
-1.23e+34
-1.23e+34
-1.23e+34
-1.23e+34
-1.23e+34
-1.23e+34
-1.23e+34
-1.23e+34
-1.23e+34
-1.23e+34
-1.23e+34
-1.23e+34
-1.23e+34
-1.23e+34
-1.23e+34
-1.23e+34
-1.23e+34
-1.23e+34
-1.23e+34
-1.23e+34
-1.23e+34
-1.23e+34
-1.23e+34
-1.23e+34
-1.23e+34
-1.23e+34
-1.23e+34
-1.23e+34
-1.23e+34
-1.23e+34
-1.23e+34
-1.23e+34
-1.23e+34
-1.23e+34
-1.23e+34
-1.23e+34
-1.23e+34
-1.23e+34
-1.23e+34
-1.23e+34
-1.23e+34
-1.23e+34
-1.23e+34
-1.23e+34
-1.23e+34
-1.23e+34
-1.23e+34
-1.23e+34
-1.23e+34
-1.23e+34
-1.23e+34
-1.23e+34
-1.23e+34
-1.23e+34
-1.23e+34
-1.23e+34
-1.23e+34
-1.23e+34
-1.23e+34
-1.23e+34
-1.23e+34
-1.23e+34
-1.23e+34
-1.23e+34
-1.23e+34
-1.23e+34
-1.23e+34
-1.23e+34
-1.23e+34
-1.23e+34
-1.23e+34
-1.23e+34
-1.23e+34
-1.23e+34
-1.23e+34
-1.23e+34
-1.23e+34
-1.23e+34
-1.23e+34
-1.23e+34
-1.23e+34
-1.23e+34
-1.23e+34
-1.23e+34
-1.23e+34
-1.23e+34
-1.23e+34
-1.23e+34
-1.23e+34
-1.23e+34
-1.23e+34
-1.23e+34
-1.23e+34
-1.23e+34
-1.23e+34
-1.23e+34
-1.23e+34
-1.23e+34
-1.23e+34
-1.23e+34
-1.23e+34
-1.23e+34
-1.23e+34
-1.23e+34
-1.23e+34
-1.23e+34
-1.23e+34
-1.23e+34
-1.23e+34
-1.23e+34
-1.23e+34
-1.23e+34
-1.23e+34
-1.23e+34
-1.23e+34
-1.23e+34
-1.23e+34
-1.23e+34
-1.23e+34
-1.23e+34
-1.23e+34
-1.23e+34
-1.23e+34
-1.23e+34
-1.23e+34
-1.23e+34
-1.23e+34
-1.23e+34
-1.23e+34
-1.23e+34
-1.23e+34
-1.23e+34
-1.23e+34
-1.23e+34
-1.23e+34
-1.23e+34
-1.23e+34
 0.440703
 0.442435
 0.444413
 0.4465
 0.448613
 0.450533
 0.452119
 0.453403
 0.454537
 0.455729
 0.457148
 0.458664
 0.460303
 0.461987
 0.463494
 0.464671
 0.465603
 0.466364
 0.467104
 0.467971
 0.468961
 0.470143
 0.47132
 0.472461
 0.47347
 0.474263
 0.4748
 0.475136
 0.475342
 0.475776
 0.476324
 0.476883
 0.477224
 0.477304
 0.476581
 0.4748
 0.472657
 0.471477
 0.47139
 0.47191
 0.472722
 0.473738
 0.474899
 0.47614
 0.477464
 0.478769
 0.479844
 0.480772
 0.481489
 0.48193
 0.48218
 0.48223
 0.482283
 0.482429
 0.482661
 0.482974
 0.483299
 0.483668
 0.484063
 0.48429
 0.484404
 0.484385
 0.484151
 0.483746
 0.483252
 0.482519
 0.481688
 0.480742
 0.47959
 0.478221
 0.47627
 0.473563
 0.470616
 0.468789
 0.468491
 0.469078
 0.469637
 0.46984
 0.469664
 0.469246
 0.468957
 0.468934
 0.468913
 0.468964
 0.46904
 0.469222
 0.469633
 0.470215
 0.470831
 0.471324
 0.471684
 0.471718
 0.471662
 0.471634
 0.47138
 0.470785
 0.470032
 0.469213
 0.468224
 0.467147
 0.465926
 0.464534
 0.46297
 0.461477
 0.460047
 0.458595
 0.457171
 0.455868
 0.454668
 0.453586
 0.452519
 0.451717